,Subject,Session,OSpan.EditDistanceScore,OSpan.EditDistanceUnit,OSpan.EditDistanceLoad,OSpan.PartialScore,OSpan.PartialUnit,OSpan.PartialLoad,Ospan.AbsoluteScore,OSpan.AbsoluteUnit,OSpan.AbsoluteLoad,Math.ACC,Math.RT_mean,Math.RT_sd,OSpan.Trials,OSpan.MemoryItems,SessionDate,SessionTime
0,1,1,20,0.8476190476190476,0.8,19,0.819047619047619,0.76,12,0.6,0.48,0.92,6804.36,3165.001196418942,5,25,05-07-2024,19:23:38
0,2,1,9,0.3257142857142857,0.36,5,0.2019047619047619,0.2,0,0.0,0.0,0.84,3197.44,1268.598409006307,5,25,03-05-2024,11:15:14
0,3,1,19,0.790952380952381,0.76,15,0.6123809523809524,0.6,3,0.2,0.12,0.92,9536.92,3847.503908596672,5,25,03-28-2024,16:04:49
0,4,1,20,0.8314285714285714,0.8,12,0.5866666666666667,0.48,7,0.4,0.28,0.96,6478.16,2034.9205897692093,5,25,03-28-2024,16:57:33
0,5,1,23,0.9166666666666666,0.92,23,0.9166666666666666,0.92,15,0.6,0.6,0.88,5043.72,1692.0975031008113,5,25,04-27-2024,17:02:41
0,6,1,20,0.7714285714285714,0.8,14,0.5857142857142857,0.56,9,0.4,0.36,0.88,6766.2,3588.0906017918032,5,25,03-22-2024,19:29:04
0,7,1,12,0.5385714285714286,0.48,13,0.5785714285714285,0.52,9,0.4,0.36,1.0,4742.28,2152.3005621892125,5,25,03-09-2024,11:08:22
0,8,1,19,0.8238095238095238,0.76,18,0.7952380952380953,0.72,12,0.6,0.48,0.96,4542.24,1397.2323023272354,5,25,03-20-2024,13:16:24
0,9,1,20,0.840952380952381,0.8,19,0.8123809523809524,0.76,7,0.4,0.28,1.0,3585.76,1255.662815674123,5,25,03-20-2024,17:04:42
0,10,1,22,0.9142857142857144,0.88,20,0.8571428571428571,0.8,18,0.8,0.72,0.92,8875.92,3969.7770080110713,5,25,03-04-2024,14:06:27
0,11,1,13,0.5738095238095238,0.52,10,0.4785714285714286,0.4,8,0.4,0.32,0.92,5794.76,2656.6700692157215,5,25,05-03-2024,14:05:23
0,12,1,21,0.8714285714285714,0.84,20,0.8380952380952381,0.8,12,0.6,0.48,1.0,2709.8,802.6587589588327,5,25,03-09-2024,14:09:45
0,13,1,25,1.0,1.0,25,1.0,1.0,25,1.0,1.0,0.96,5811.96,1880.469189679356,5,25,03-08-2024,16:17:27
0,14,1,21,0.8742857142857143,0.84,20,0.8457142857142858,0.8,13,0.6,0.52,1.0,5144.4,2126.281535137496,5,25,03-12-2024,16:23:28
0,15,1,20,0.8014285714285714,0.8,17,0.6514285714285715,0.68,9,0.4,0.36,1.0,8395.04,3851.0007192936223,5,25,03-14-2024,19:57:54
0,16,1,20,0.8571428571428571,0.8,18,0.8,0.72,18,0.8,0.72,0.92,8527.16,3901.177949030267,5,25,03-16-2024,16:11:42
0,18,1,24,0.9666666666666668,0.96,24,0.9666666666666668,0.96,19,0.8,0.76,0.84,3799.36,1291.8587022839097,5,25,03-30-2024,11:09:14
0,19,1,23,0.9428571428571428,0.92,22,0.9142857142857144,0.88,18,0.8,0.72,1.0,3102.28,1060.389453612838,5,25,03-26-2024,15:58:54
0,20,1,20,0.8476190476190476,0.8,18,0.7904761904761904,0.72,12,0.6,0.48,1.0,3778.8,1625.853826968054,5,25,03-29-2024,20:16:15
0,21,1,21,0.8647619047619047,0.84,19,0.8028571428571428,0.76,7,0.4,0.28,1.0,6723.08,3293.108472249282,5,25,04-20-2024,13:48:09
0,23,1,13,0.5071428571428571,0.52,10,0.3952380952380952,0.4,5,0.2,0.2,0.76,8694.56,3947.702961639,5,25,04-06-2024,15:58:04
0,24,1,13,0.6,0.52,10,0.5,0.4,8,0.4,0.32,0.96,4944.04,1542.013226272719,5,25,04-05-2024,16:12:27
0,25,1,23,0.9428571428571428,0.92,22,0.9142857142857144,0.88,18,0.8,0.72,0.92,3528.84,1328.625721061679,5,25,03-30-2024,16:00:40
0,26,1,20,0.8033333333333333,0.8,13,0.5,0.52,10,0.4,0.4,0.76,6434.4,3244.4451374618743,5,25,04-06-2024,14:40:52
0,27,1,25,1.0,1.0,25,1.0,1.0,25,1.0,1.0,0.96,3030.96,1028.8688967340138,5,25,04-20-2024,15:56:22
0,28,1,12,0.4771428571428571,0.48,8,0.3319047619047618,0.32,0,0.0,0.0,0.92,9001.84,5610.818654468645,5,25,04-04-2024,14:23:00
0,29,1,22,0.8714285714285714,0.88,21,0.8214285714285714,0.84,14,0.6,0.56,0.92,4767.48,1562.9667601498547,5,25,04-19-2024,16:30:32
0,30,1,24,0.9714285714285714,0.96,22,0.9142857142857144,0.88,18,0.8,0.72,0.92,4692.68,2393.9162600224763,5,25,04-19-2024,12:58:58
0,32,1,24,0.9714285714285714,0.96,24,0.9714285714285714,0.96,18,0.8,0.72,0.96,7013.52,2453.2409196815547,5,25,04-20-2024,11:00:56
0,34,1,23,0.9214285714285714,0.92,23,0.9214285714285714,0.92,14,0.6,0.56,1.0,3289.68,762.4331511680222,5,25,04-26-2024,14:10:29
0,35,1,25,1.0,1.0,25,1.0,1.0,25,1.0,1.0,1.0,6172.56,1856.2203326473216,5,25,04-25-2024,13:53:30
0,36,1,18,0.7,0.72,17,0.6714285714285714,0.68,9,0.4,0.36,0.96,5141.12,2333.090909787558,5,25,04-23-2024,18:10:55
0,37,1,25,1.0,1.0,25,1.0,1.0,25,1.0,1.0,0.92,4879.64,1593.3386823480646,5,25,05-08-2024,15:09:37
0,38,1,24,0.9714285714285714,0.96,24,0.9714285714285714,0.96,18,0.8,0.72,0.92,5221.0,2310.2496257619723,5,25,05-17-2024,14:08:01
0,39,1,22,0.8914285714285715,0.88,22,0.8914285714285715,0.88,13,0.6,0.52,1.0,6593.76,2061.0130454059076,5,25,06-13-2024,11:41:44
0,46,1,15,0.6442857142857142,0.6,7,0.3404761904761905,0.28,3,0.2,0.12,0.92,2466.36,602.0690630373451,5,25,07-01-2024,14:10:20
